<?xml version="1.0" encoding="UTF-8"?>
<ODM xmlns="http://www.cdisc.org/ns/odm/v1.3"
     xmlns:data="http://www.cdisc.org/ns/Dataset-XML/v1.0"
     FileOID="STUDY-XML-01.LB"
     PriorFileOID="DEFINE.STUDY-XML-01"
     FileType="Snapshot"
     ODMVersion="1.3.2"
     CreationDateTime="2026-08-02T10:00:00Z"
     Originator="Convert-Pheno"
     data:DatasetXMLVersion="1.0.0">
  <ClinicalData StudyOID="STUDY-XML-01" MetaDataVersionOID="MDV.STUDY-XML-01">
    <ItemGroupData ItemGroupOID="IG.LB" data:ItemGroupDataSeq="1">
      <ItemData ItemOID="IT.LB.USUBJID" Value="P001"/>
      <ItemData ItemOID="IT.LB.DOMAIN" Value="LB"/>
      <ItemData ItemOID="IT.LB.LBTESTCD" Value="ALT"/>
      <ItemData ItemOID="IT.LB.LBTEST" Value="Alanine Aminotransferase"/>
      <ItemData ItemOID="IT.LB.LBSTRESC" Value="42"/>
      <ItemData ItemOID="IT.LB.LBSTRESN" Value="42"/>
      <ItemData ItemOID="IT.LB.LBSTRESU" Value="U/L"/>
      <ItemData ItemOID="IT.LB.LBSTNRLO" Value="7"/>
      <ItemData ItemOID="IT.LB.LBSTNRHI" Value="56"/>
      <ItemData ItemOID="IT.LB.LBDTC" Value="2025-01-02"/>
    </ItemGroupData>
    <ItemGroupData ItemGroupOID="IG.LB" data:ItemGroupDataSeq="2">
      <ItemData ItemOID="IT.LB.USUBJID" Value="P001"/>
      <ItemData ItemOID="IT.LB.DOMAIN" Value="LB"/>
      <ItemData ItemOID="IT.LB.LBTESTCD" Value="COV2"/>
      <ItemData ItemOID="IT.LB.LBTEST" Value="SARS-CoV-2 RNA"/>
      <ItemData ItemOID="IT.LB.LBSTRESC" Value="NEGATIVE"/>
      <ItemData ItemOID="IT.LB.LBDTC" Value="2025-01-05"/>
    </ItemGroupData>
    <ItemGroupData ItemGroupOID="IG.LB" data:ItemGroupDataSeq="3">
      <ItemData ItemOID="IT.LB.USUBJID" Value="P002"/>
      <ItemData ItemOID="IT.LB.DOMAIN" Value="LB"/>
      <ItemData ItemOID="IT.LB.LBTESTCD" Value="HGB"/>
      <ItemData ItemOID="IT.LB.LBTEST" Value="Hemoglobin"/>
      <ItemData ItemOID="IT.LB.LBSTRESC" Value="13.2"/>
      <ItemData ItemOID="IT.LB.LBSTRESN" Value="13.2"/>
      <ItemData ItemOID="IT.LB.LBSTRESU" Value="g/dL"/>
      <ItemData ItemOID="IT.LB.LBSTNRLO" Value="12"/>
      <ItemData ItemOID="IT.LB.LBSTNRHI" Value="16"/>
      <ItemData ItemOID="IT.LB.LBDTC" Value="2025-02-09"/>
    </ItemGroupData>
  </ClinicalData>
</ODM>
