<?xml version="1.0" encoding="UTF-8"?>
<ODM xmlns="http://www.cdisc.org/ns/odm/v1.3"
     xmlns:def="http://www.cdisc.org/ns/def/v2.0"
     FileOID="DEFINE.SDTM-TERMS"
     FileType="Snapshot"
     ODMVersion="1.3.2"
     CreationDateTime="2026-08-02T10:00:00Z">
  <Study OID="SDTM-TERMS">
    <MetaDataVersion OID="MDV.SDTM-TERMS" Name="Terminology fixture" def:DefineVersion="2.0.0">
      <ItemGroupDef OID="IG.DM" Name="DM" Domain="DM" Repeating="No" IsReferenceData="No" Purpose="Tabulation">
        <ItemRef ItemOID="IT.DM.USUBJID" OrderNumber="1" Mandatory="Yes"/>
        <ItemRef ItemOID="IT.DM.DOMAIN" OrderNumber="2" Mandatory="Yes"/>
        <ItemRef ItemOID="IT.DM.SEX" OrderNumber="3" Mandatory="Yes"/>
        <ItemRef ItemOID="IT.DM.ETHNIC" OrderNumber="4" Mandatory="No"/>
      </ItemGroupDef>

      <ItemDef OID="IT.DM.USUBJID" Name="USUBJID" DataType="text"/>
      <ItemDef OID="IT.DM.DOMAIN" Name="DOMAIN" DataType="text"/>
      <ItemDef OID="IT.DM.SEX" Name="SEX" DataType="text"/>
      <ItemDef OID="IT.DM.ETHNIC" Name="ETHNIC" DataType="text">
        <CodeListRef CodeListOID="CL.ETHNIC"/>
      </ItemDef>

      <CodeList OID="CL.ETHNIC" Name="Ethnicity" DataType="text">
        <CodeListItem CodedValue="NOT HISPANIC OR LATINO" OrderNumber="1">
          <Decode><TranslatedText xml:lang="en">Not Hispanic or Latino</TranslatedText></Decode>
          <Alias Context="nci:ExtCodeID" Name="C41222"/>
        </CodeListItem>
        <CodeListItem CodedValue="UNKNOWN" OrderNumber="2">
          <Decode><TranslatedText xml:lang="en">Unknown</TranslatedText></Decode>
          <Alias Context="submissionValue" Name="C70666"/>
        </CodeListItem>
      </CodeList>
    </MetaDataVersion>
  </Study>
</ODM>
